Folder: QPSTools.jl/data/ftir/measurement_kinds

Note: README.md
# QPSTools.jl - Quantum Photo-Science Laboratory Analysis Package

**The standardized analysis package for all lab members.**

QPSTools.jl provides common tools for spectroscopic data analysis, pump-probe measurements, and publication-quality plotting. All students should use QPSTools.jl to ensure consistency and enable collaboration across research projects.

## Ecosystem

| Package | Role |
|---|---|
| **QPSTools.jl** | Analysis, fitting, plotting, reporting (this package) |
| **QPSDrive.jl** | Instrument control & scanning |
| **QPSView.jl** | Live data viewer & scan monitor |

## Quick Start

```julia
julia --project=.
using Revise
using QPSTools
using CairoMakie  # or GLMakie for interactive
```

### FTIR Workflow

```julia
using QPSTools, CairoMakie

# Load from registry
spec = load_ftir(solute="NH4SCN", concentration="1.0M")

# Fit peaks in the CN stretch region
result = fit_peaks(spec, (2000, 2100))
report(result)

# Plot with fit and residuals
fig, ax, ax_res = plot_spectrum(spec; fit=result, residuals=true)
save("figures/cn_stretch.pdf", fig)
```

### Pump-Probe Workflow

```julia
using QPSTools, CairoMakie

# Load kinetic trace (peak auto-shifted to t=0)
trace = load_ta_trace("data/kinetics.lvm"; mode=:OD)

# Fit with IRF deconvolution
result = fit_exp_decay(trace)
report(result)

# Plot with automatic residuals panel
fig, ax, ax_res = plot_kinetics(trace; fit=result)
save("figures/kinetics.pdf", fig)

# Global fit across ESA and GSB traces
trace_gsb = load_ta_trace("data/kinetics_gsb.lvm"; mode=:OD)
global_result = fit_global([trace, trace_gsb]; labels=["ESA", "GSB"])
report(global_result)
```

### Publication Figure

```julia
set_theme!(print_theme())
fig = Figure(size=(1000, 400))

# Panel A: Spectra
ax_a = Axis(fig[1, 1], xlabel="Wavenumber (cm-1)", ylabel="DA")
lines!(ax_a, spec_1ps.wavenumber, spec_1ps.signal, label="1 ps")
lines!(ax_a, spec_5ps.wavenumber, spec_5ps.signal, label="5 ps")
axislegend(ax_a)

# Panel B: Kinetics
ax_b = Axis(fig[1, 2], xlabel="Time (ps)", ylabel="DA")
scatter!(ax_b, trace.time, trace.signal, label="Data")
lines!(ax_b, trace.time, predict(result, trace), color=:red, label="Fit")
axislegend(ax_b)

save("figures/publication.pdf", fig)
```

## Core Features

### Transient Absorption
- Single/biexponential fitting with IRF deconvolution
- Global analysis with shared parameters across traces
- Broadband TA matrix loading and indexing (`matrix[t=1.0]`, `matrix[l=800]`)
- TA spectrum fitting (ESA/GSB decomposition)

### Steady-State Spectroscopy
- FTIR and Raman loading via sample registry
- Peak detection (`find_peaks`) and fitting (`fit_peaks`)
- Gaussian, Lorentzian, Pseudo-Voigt models via CurveFitModels.jl
- Baseline correction (ALS, ARPLS, SNIP)

### Plotting
- `plot_spectrum`, `plot_kinetics` with keyword-driven layouts
- `plot_comparison`, `plot_waterfall` for multi-spectrum views
- `print_theme()`, `poster_theme()`, `compact_theme()`
- Layer functions: `plot_peak_decomposition!`, `plot_peaks!`

### e

File: interferrogram.csv
TITLE,test
DATA TYPE,INFRARED INTERFEROGRAM
ORIGIN,JASCO
OWNER,test
DATE,26/02/12
TIME,12:27:08
SPECTROMETER/DATA SYSTEM,
LOCALE,1041
RESOLUTION,
DELTAX,1
XUNITS,Position [AU]
YUNITS,Int.
FIRSTX,-4095
LASTX, 4096
NPOINTS,    8192
FIRSTY,     0.00000
MAXY,     8.65631
MINY,    -3.27958
XYDATA
-4095,0
-4067,0
-4039,0
-4011,0
-3983,0
-3955,0
-3927,0
-3899,0
-3871,0
-3843,0
-3815,0
-3787,0
-3759,0
-3731,0
-3703,0
-3675,0
-3647,0
-3619,0
-3591,0
-3563,0
-3535,0
-3507,0
-3479,0
-3451,0
-3423,0
-3395,0
-3367,0
-3339,0
-3311,0.0216986
-3283,-0.0218064
-3255,0.0235264
-3227,-0.0308725
-3199,0.036367
-3171,-0.0122799
-3143,-0.0192981
-3115,0.0111062
-3087,0.0118709
-3059,-0.0162983
-3031,-0.00699159
-3003,0.013625
-2975,-0.00280445
-2947,-0.00225481
-2919,0.0122444
-2891,-0.0136342
-2863,0.0204933
-2835,-0.00988323
-2807,-0.00237508
-2779,-0.0105038
-2751,0.0136104
-2723,-0.0133469
-2695,0.00994478
-2667,-0.00619006
-2639,-0.017313
-2611,0.0270445
-2583,0.00569013
-2555,-0.0239263
-2527,0.0167227
-2499,0.00395261
-2471,-0.0106274
-2443,0.00534959
-2415,-0.000668185
-2387,-0.00567097
-2359,0.001037
-2331,-0.00834802
-2303,0.00937887
-2275,0.00162988
-2247,-0.0107732
-2219,0.018735
-2191,-0.0054044
-2163,0.00128152
-2135,-0.000170238
-2107,-0.000499654
-2079,-0.00878831
-2051,0.0032537
-2023,-0.00776273
-1995,0.0115241
-1967,-0.0291333
-1939,0.0471933
-1911,-0.0411665
-1883,0.02266
-1855,0.0160114
-1827,-0.00760687
-1799,-0.0230394
-1771,0.0410128
-1743,-0.0354011
-1715,-0.000296927
-1687,0.0129335
-1659,-0.0198768
-1631,0.0308926
-1603,-0.0411971
-1575,0.0233941
-1547,0.00875687
-1519,0.00234491
-1491,-0.00270865
-1463,0.00860169
-1435,-0.0171952
-1407,0.0111952
-1379,-0.00730182
-1351,-0.00122032
-1323,-0.00997204
-1295,0.0106245
-1267,-0.0179708
-1239,0.0105803
-1211,0.00474788
-1183,0.00794001
-1155,0.00164944
-1127,-0.0119614
-1099,0.0178944
-1071,-0.0164944
-1043,0.0053385
-1015,-0.023476
-987.0000,0.000878697
-959.0000,-0.00117452
-931.0000,0.00137481
-903.0000,0.00474558
-875.0000,0.0150526
-847.0000,0.0164459
-819.0000,-0.000708019
-791.0000,0.00701368
-763.0000,-0.0121705
-735.0000,-0.00752826
-707.0000,-0.0389128
-679.0000,0.0159349
-651.0000,-0.0253821
-623.0000,0.00656247
-595.0000,0.025695
-567.0000,0.0077924
-539.0000,0.0058688
-511.0000,0.0203039
-483.0000,-0.0213939
-455.0000,-0.00291139
-427.0000,-0.0250004
-399.0000,0.0279657
-371.0000,0.013411
-343.0000,0.0379951
-315.0000,0.0551644
-287.0000,-0.019096
-259.0000,0.0177405
-231.0000,-0.0699308
-203.0000,-0.106767
-175.0000,-0.0322772
-147.0000,-0.147107
-119.0000,-0.0457214
-91.0000,-0.0565792
-63.0000,-0.0264244
-35.0000,-0.02088
-7.0000,-3.25278
21.0000,-0.00927112
49.0000,0.262249
77.0000,0.0318046
105.0000,0.00337439
133.0000,-0.0207757
161.0000,-0.061783
189.0000,-0.121547
217.0000,0.0156614
245.0000,-0.0506076
273.0000,0.021123
301.0000,0.048783
329.0000,0.00546363
357.0000,0.0468198
385.0000,0.00848208
413.0000,-7.13285E-005
441.0000,0.00127329
469.0000,-0.00503518
497.0000,-0.00442319
525.0000,-0.0142299
553.0000,0.0276778
581.0000,0.00757939
609.0000,0.00381171
637.0000,0.0179226
665.0000,-0.00655993
693.0000,-0.0246474
721.0000,-0.0046985
749.0000,-0.0164734
777.0000,-0.0138647
805.0000,1.90423E-005
833.0000,0.0236641
861.0000,-0.000833072
889.0000,0.0174574
917.0000,0.0147717
945.0000,-0.00528629
973.0000,-0.00334298
1001,-0.0160433
1029,0.00107878
1057,-0.0118338
1085,-0.00310018
1113,-0.00262516
1141,0.0207071
1169,-0.0014778
1197,0.00482728
1225,0.00309407
1253,-0.00323957
1281,-0.0112229
1309,0.023133
1337,-0.02366
1365,0.00472372
1393,-0.00568627
1421,-0.00492847
1449,0.00816873
1477,-0.00196151
1505,-0.00193086
1533,0.010701
1561,-0.0176521
1589,0.00981835
1617,0.0242347
1645,-0.0161746
1673,-0.00592859
1701,0.00155488
1729,-0.00668226
1757,0.0123699
1785,-0.0403231
1813,0.0477335
1841,-0.0170311
1869,-0.00814271
1897,0.0133554
1925,0.0244029
1953,-0.0464288
1981,0.0521026
2009,-0.0424685
2037,0.0181204
2065,-0.017273
2093,0.00863913
2121,-0.00916597
2149,0.00839413
2177,-0.00108006
2205,0.000512132
2233,-0.00025605
2261,0.00660207
2289,0.00494933
2317,-0.013793
2345,0.00951393
2373,-0.00167186
2401,-0.00563377
2429,-0.00111127
2457,-0.00471757
2485,0.0071467
2513,-0.0135842
2541,0.0185783
2569,-0.00290551
2597,0.000228327
2625,-0.011945
2653,0.0259877
2681,-0.0164131
2709,0.00389397
2737,-0.0058441
2765,-0.00677245
2793,-0.000164067
2821,0.0105099
2849,-0.00431273
2877,-0.00600459
2905,0.00474225
2933,0.0135649
2961,-0.0168978
2989,0.0217724
3017,-0.0264206
3045,0.0260449
3073,-0.0057583
3101,-0.0174806
3129,-0.000317248
3157,0.0215527
3185,-0.016423
3213,-0.00565114
3241,0.0104029
3269,0.00256817
3297,-0.000950237
3325,-0.00684843
3353,0
3381,0
3409,0
3437,0
3465,0
3493,0
3521,0
3549,0
3577,0
3605,0
3633,0
3661,0
3689,0
3717,0
3745,0
3773,0
3801,0
3829,0
3857,0
3885,0
3913,0
3941,0
3969,0
3997,0
4025,0
4053,0
4081,0
4096,0

##### Extended Information
[Rg]
,test
Rg,test
,test
,test
,NAIST

[f[^]
,2026/02/12 12:27

f[^^Cv,uf[^
,Position [AU]
c,Int.
X^[g,-4095 AU
Gh,4096 AU
f[^u,1 AU
f[^,8192

[]
@,FT/IR-4600typeA
VA,E137161786

,2026/02/12 12:27

,W
o,TGS
Z,8
,8 cm-1
[tBO,On
A|_C[[V,Cosine
QC,Auto (1)
Ap[`[,Auto (7.1 mm)
XLXs[h,Auto (2 mm/sec)
tB^,Auto (30000 Hz)