Folder: QPSTools.jl/data/raman

Note: README.md
# QPSTools.jl - Quantum Photo-Science Laboratory Analysis Package

**The standardized analysis package for all lab members.**

QPSTools.jl provides common tools for spectroscopic data analysis, pump-probe measurements, and publication-quality plotting. All students should use QPSTools.jl to ensure consistency and enable collaboration across research projects.

## Ecosystem

| Package | Role |
|---|---|
| **QPSTools.jl** | Analysis, fitting, plotting, reporting (this package) |
| **QPSDrive.jl** | Instrument control & scanning |
| **QPSView.jl** | Live data viewer & scan monitor |

## Quick Start

```julia
julia --project=.
using Revise
using QPSTools
using CairoMakie  # or GLMakie for interactive
```

### FTIR Workflow

```julia
using QPSTools, CairoMakie

# Load from registry
spec = load_ftir(solute="NH4SCN", concentration="1.0M")

# Fit peaks in the CN stretch region
result = fit_peaks(spec, (2000, 2100))
report(result)

# Plot with fit and residuals
fig, ax, ax_res = plot_spectrum(spec; fit=result, residuals=true)
save("figures/cn_stretch.pdf", fig)
```

### Pump-Probe Workflow

```julia
using QPSTools, CairoMakie

# Load kinetic trace (peak auto-shifted to t=0)
trace = load_ta_trace("data/kinetics.lvm"; mode=:OD)

# Fit with IRF deconvolution
result = fit_exp_decay(trace)
report(result)

# Plot with automatic residuals panel
fig, ax, ax_res = plot_kinetics(trace; fit=result)
save("figures/kinetics.pdf", fig)

# Global fit across ESA and GSB traces
trace_gsb = load_ta_trace("data/kinetics_gsb.lvm"; mode=:OD)
global_result = fit_global([trace, trace_gsb]; labels=["ESA", "GSB"])
report(global_result)
```

### Publication Figure

```julia
set_theme!(print_theme())
fig = Figure(size=(1000, 400))

# Panel A: Spectra
ax_a = Axis(fig[1, 1], xlabel="Wavenumber (cm-1)", ylabel="DA")
lines!(ax_a, spec_1ps.wavenumber, spec_1ps.signal, label="1 ps")
lines!(ax_a, spec_5ps.wavenumber, spec_5ps.signal, label="5 ps")
axislegend(ax_a)

# Panel B: Kinetics
ax_b = Axis(fig[1, 2], xlabel="Time (ps)", ylabel="DA")
scatter!(ax_b, trace.time, trace.signal, label="Data")
lines!(ax_b, trace.time, predict(result, trace), color=:red, label="Fit")
axislegend(ax_b)

save("figures/publication.pdf", fig)
```

## Core Features

### Transient Absorption
- Single/biexponential fitting with IRF deconvolution
- Global analysis with shared parameters across traces
- Broadband TA matrix loading and indexing (`matrix[t=1.0]`, `matrix[l=800]`)
- TA spectrum fitting (ESA/GSB decomposition)

### Steady-State Spectroscopy
- FTIR and Raman loading via sample registry
- Peak detection (`find_peaks`) and fitting (`fit_peaks`)
- Gaussian, Lorentzian, Pseudo-Voigt models via CurveFitModels.jl
- Baseline correction (ALS, ARPLS, SNIP)

### Plotting
- `plot_spectrum`, `plot_kinetics` with keyword-driven layouts
- `plot_comparison`, `plot_waterfall` for multi-spectrum views
- `print_theme()`, `poster_theme()`, `compact_theme()`
- Layer functions: `plot_peak_decomposition!`, `plot_peaks!`

### e

File: ZIF62_crystal_1.csv
TITLE,C1
DATA TYPE,RAMAN SPECTRUM
ORIGIN,JASCO
OWNER,
DATE,24/11/05
TIME,15:23:06
SPECTROMETER/DATA SYSTEM,
LOCALE,1041
XUNITS,1/CM
YUNITS,INTENSITY
FIRSTX,  545.8049
LASTX, 1598
NPOINTS,    1024
XYDATA
545.8049,199
550.3750,200
554.9412,201
559.5035,201
564.0620,202.5
568.6165,200
573.1672,200.5
577.7140,200.5
582.2569,202
586.7960,200.5
591.3311,199
595.8624,197.5
600.3899,199
604.9135,200
609.4332,197.5
613.9492,198.5
618.4612,199.5
622.9694,199
627.4738,200
631.9744,199
636.4711,201
640.9641,204.5
645.4532,203
649.9384,202.5
654.4199,203
658.8976,202
663.3715,202
667.8415,201
672.3078,200.5
676.7703,199
681.2290,197.5
685.6839,198
690.1351,197
694.5824,197
699.0260,195
703.4658,196
707.9019,197.5
712.3342,196
716.7628,197
721.1876,197
725.6086,196
730.0259,197.5
734.4395,195
738.8494,196
743.2555,196.5
747.6579,197.5
752.0565,198
756.4515,196.5
760.8427,195.5
765.2302,197
769.6141,198
773.9941,207
778.3705,203
782.7433,195
787.1123,195
791.4776,195.5
795.8393,196.5
800.1972,195.5
804.5515,196.5
808.9022,195
813.2491,196
817.5923,195
821.9320,198
826.2679,196
830.6002,197
834.9289,197
839.2539,195.5
843.5753,197
847.8930,196
852.2071,195.5
856.5176,195.5
860.8244,196
865.1276,201.5
869.4272,195
873.7231,193.5
878.0155,196.5
882.3043,195
886.5894,194.5
890.8710,195.5
895.1489,196.5
899.4233,199
903.6940,197
907.9612,196
912.2248,196.5
916.4848,195.5
920.7412,197
924.9941,196
929.2433,197
933.4891,194.5
937.7313,198.5
941.9698,195
946.2049,198
950.4364,199
954.6644,199.5
958.8888,196.5
963.1097,195.5
967.3270,197.5
971.5408,200.5
975.7511,205.5
979.9578,201
984.1611,196.5
988.3608,194.5
992.5569,196.5
996.7496,196
1000.94,199.5
1005.12,200
1009.31,197.5
1013.49,196.5
1017.66,198
1021.83,201
1026,195
1030.17,196
1034.33,195.5
1038.48,195
1042.64,194.5
1046.79,195.5
1050.94,197.5
1055.08,196.5
1059.22,196
1063.36,196
1067.49,197
1071.62,196
1075.75,197
1079.87,198
1083.99,201.5
1088.11,201.5
1092.22,199
1096.33,197.5
1100.44,200
1104.54,200
1108.64,201
1112.73,198.5
1116.83,198
1120.91,197.5
1125,196
1129.08,197.5
1133.16,197
1137.24,198
1141.31,196
1145.38,196.5
1149.44,197
1153.5,198.5
1157.56,199
1161.62,203.5
1165.67,208.5
1169.72,212
1173.76,211.5
1177.81,208
1181.84,202
1185.88,201
1189.91,197.5
1193.94,198.5
1197.96,199
1201.98,198.5
1206,197.5
1210.02,199.5
1214.03,200.5
1218.04,198.5
1222.04,199
1226.04,200.5
1230.04,199.5
1234.04,199.5
1238.03,200.5
1242.02,201.5
1246,200
1249.98,200
1253.96,203.5
1257.94,203
1261.91,201
1265.88,205
1269.84,214.5
1273.81,225
1277.76,237.5
1281.72,223
1285.67,211.5
1289.62,209
1293.57,207
1297.51,206
1301.45,205.5
1305.38,202.5
1309.32,201
1313.25,201.5
1317.17,202.5
1321.1,203
1325.02,202.5
1328.93,203.5
1332.84,203
1336.75,201.5
1340.66,203.5
1344.57,203
1348.47,205
1352.36,202.5
1356.26,206
1360.15,203.5
1364.03,202
1367.92,204.5
1371.8,202.5
1375.68,202
1379.55,203
1383.42,203.5
1387.29,202.5
1391.16,205
1395.02,203.5
1398.88,205
1402.73,206
1406.59,205.5
1410.44,202
1414.28,202.5
1418.12,203.5
1421.96,203
1425.8,203
1429.63,205.5
1433.46,202
1437.29,205.5
1441.12,205
1444.94,204
1448.75,206.5
1452.57,204.5
1456.38,206
1460.19,207.5
1463.99,205
1467.8,209.5
1471.59,207
1475.39,208
1479.18,208.5
1482.97,207.5
1486.76,218.5
1490.54,219.5
1494.32,213.5
1498.1,209
1501.87,205.5
1505.64,206.5
1509.41,204.5
1513.18,206
1516.94,205
1520.7,203.5
1524.45,203.5
1528.21,204.5
1531.96,204
1535.7,203.5
1539.45,203
1543.19,203
1546.92,204
1550.66,204
1554.39,205
1558.12,204
1561.84,205.5
1565.56,203
1569.28,205
1573,204
1576.71,204
1580.42,205.5
1584.13,206
1587.83,206
1591.53,204.5
1595.23,203
1598,204

##### Extended Information
[Comments]
Sample name,C1
Comment,
User,Garrek Stemo
Division
Company,ìﬁó«êÊí[â»äwãZèpëÂäwâ@ëÂäw

[Detailed Information]
Creation date,2024/11/05 15:23

Data array type,Non-linear data array
Horizontal axis,Raman Shift [cm-1]
Vertical axis,Int.
Start,545.805 cm-1
End,1598 cm-1
Data points,1024

[Measurement Information]
Model Name,NRS-5100
Serial Number,C008561420

Measurement Date,2024/11/05 15:23

Exposure,60 sec
Accumulation,2
Center wavenumber,1100.44 cm-1
Z position,16313.8 um
Binning Upper,97
Binning Lower,155
Valid Channel,1 - 1024
Shift Speed,16.25 usecs
Amplitude,Normal
Readout Rate,100kHz at 16-bit
Pre-Amplifier Gain,1x
Mode,Conventional
CCD,DU420_OE,12

Laser wavelength,532.05 nm
Monochromator,Single
Grating,1800 l/mm
Slit,25 x 1000 um
Aperture,d-4000 um
Rejection filter,532.0 nm
Resolution,0.99 cm-1, 1.03 cm-1/pixel
Objective lens,MPLFLN 100 x
BS/DM,BS 30/70
Laser power,0.7 mW
Attenuator,5%(OD1.3)
Cosmic ray reduction,On
CCD temperature,-69.0 C
Shift,-2.19 cm-1

File: ZIF62_crystal_2.csv
TITLE,C2
DATA TYPE,RAMAN SPECTRUM
ORIGIN,JASCO
OWNER,
DATE,24/12/03
TIME,18:17:53
SPECTROMETER/DATA SYSTEM,
LOCALE,1041
XUNITS,1/CM
YUNITS,INTENSITY
FIRSTX,  545.6195
LASTX, 1597.84
NPOINTS,    1024
XYDATA
545.6195,645.5
550.1897,662.5
554.7560,676
559.3185,649
563.8771,642
568.4318,643.557
572.9825,646.5
577.5294,638.5
582.0724,634
586.6116,644
591.1469,638
595.6783,633
600.2059,633
604.7297,645
609.2495,644
613.7656,640.5
618.2777,633
622.7861,628.5
627.2906,627.5
631.7913,631
636.2881,630.5
640.7811,648
645.2704,657.5
649.7558,643.5
654.2374,640
658.7151,638.5
663.1891,648.5
667.6593,672
672.1257,658.5
676.5883,645
681.0471,625.5
685.5021,602.5
689.9534,597
694.4009,591.5
698.8446,577.5
703.2845,575
707.7208,571.5
712.1532,571
716.5818,573
721.0068,568.5
725.4279,570
729.8454,562
734.2591,570
738.6690,575
743.0753,566.5
747.4778,565.246
751.8765,557
756.2716,565
760.6630,569.5
765.0506,565
769.4345,571.5
773.8147,668
778.1912,598
782.5641,562.5
786.9332,562
791.2986,560.5
795.6604,561.5
800.0185,561.5
804.3729,567
808.7236,566
813.0707,557.5
817.4141,564.5
821.7538,562.5
826.0898,567.254
830.4223,574.5
834.7510,572
839.0762,570
843.3976,568
847.7155,566.5
852.0297,566.5
856.3403,556
860.6472,560
864.9505,549
869.2502,561
873.5463,559
877.8388,559.5
882.1276,558
886.4129,560
890.6946,563
894.9726,568.5
899.2471,573.5
903.5179,573
907.7852,585
912.0489,574.5
916.3090,565
920.5656,571.5
924.8185,572
929.0679,586
933.3138,572
937.5561,573
941.7948,572.5
946.0300,575.5
950.2615,580
954.4896,627.5
958.7142,580
962.9351,571
967.1526,587
971.3665,612.5
975.5768,715.5
979.7838,629.5
983.9871,579.5
988.1869,574.5
992.3832,575
996.5760,573
1000.77,587.5
1004.95,600
1009.13,581
1013.31,592
1017.49,648
1021.66,631
1025.83,585.5
1029.99,574
1034.15,565.5
1038.31,565.5
1042.47,562.5
1046.62,570.5
1050.76,570
1054.91,572
1059.05,573.5
1063.19,571.5
1067.32,571
1071.45,572
1075.58,576.5
1079.7,588
1083.82,640
1087.94,600.5
1092.05,600
1096.16,597
1100.27,611
1104.37,603.5
1108.47,609
1112.56,591
1116.66,591.5
1120.74,599.5
1124.83,580.5
1128.91,594
1132.99,595
1137.07,592.5
1141.14,602
1145.21,610.5
1149.27,606.5
1153.34,613.5
1157.39,632.5
1161.45,666.5
1165.5,779
1169.55,956.5
1173.59,749
1177.64,652.5
1181.67,629.5
1185.71,622
1189.74,620
1193.77,617.5
1197.79,621.5
1201.82,619.5
1205.83,611
1209.85,613
1213.86,618
1217.87,629.5
1221.87,633.5
1225.88,631
1229.87,634
1233.87,649
1237.86,674
1241.85,655.5
1245.84,643
1249.82,642
1253.8,645
1257.77,660.5
1261.74,683.5
1265.71,716
1269.68,830
1273.64,1063
1277.6,910.5
1281.55,743
1285.51,715.5
1289.46,693
1293.4,678.5
1297.34,668.5
1301.28,656
1305.22,658
1309.15,654
1313.08,662
1317.01,652.5
1320.93,652
1324.85,652
1328.77,659.5
1332.68,667
1336.59,681.5
1340.5,682.5
1344.4,696.5
1348.3,689
1352.2,668.5
1356.09,670
1359.98,680.5
1363.87,673.5
1367.75,658
1371.64,661
1375.51,652
1379.39,654.5
1383.26,650.5
1387.13,653
1390.99,654.5
1394.86,657.5
1398.71,659.5
1402.57,666.5
1406.42,661
1410.27,670.5
1414.12,669
1417.96,679.5
1421.8,670.5
1425.64,690
1429.47,670.5
1433.3,679.5
1437.13,687.5
1440.95,683
1444.77,687.5
1448.59,681
1452.41,706.5
1456.22,697
1460.03,697.5
1463.83,703.5
1467.63,716
1471.43,721
1475.23,711
1479.02,710.5
1482.81,725.5
1486.6,771.5
1490.38,776
1494.16,722.5
1497.94,704
1501.71,696.5
1505.48,689.5
1509.25,695.5
1513.02,698
1516.78,690.5
1520.54,697
1524.29,702.5
1528.05,689
1531.8,687.5
1535.54,697.5
1539.29,695
1543.03,693
1546.76,688
1550.5,696.5
1554.23,699.5
1557.96,689
1561.68,703
1565.4,705.5
1569.12,704
1572.84,696
1576.55,699
1580.26,705
1583.97,717
1587.67,704
1591.37,698
1595.07,701.5
1597.84,707.5

##### Extended Information
[Comments]
Sample name,C2
Comment,
User,Garrek Stemo
Division
Company,ìﬁó«êÊí[â»äwãZèpëÂäwâ@ëÂäw

[Detailed Information]
Creation date,2024/12/03 18:17

Data array type,Non-linear data array
Horizontal axis,Raman Shift [cm-1]
Vertical axis,Int.
Start,545.62 cm-1
End,1597.84 cm-1
Data points,1024

[Measurement Information]
Model Name,NRS-5100
Serial Number,C008561420

Measurement Date,2024/12/03 18:17

Exposure,370 sec
Accumulation,2
Center wavenumber,1100.27 cm-1
Z position,16999.3 um
Binning Upper,97
Binning Lower,155
Valid Channel,1 - 1024
Shift Speed,16.25 usecs
Amplitude,Normal
Readout Rate,100kHz at 16-bit
Pre-Amplifier Gain,1x
Mode,Conventional
CCD,DU420_OE,12

Laser wavelength,532.05 nm
Monochromator,Single
Grating,1800 l/mm
Slit,50 x 1000 um
Aperture,d-4000 um
Rejection filter,532.0 nm
Resolution,1.97 cm-1, 1.03 cm-1/pixel
Objective lens,MPLFLN 100 x
BS/DM,BS 30/70
Laser power,0.1 mW
Attenuator,1%(OD2)
Cosmic ray reduction,On
CCD temperature,-69.0 C
Shift,-3.20 cm-1

File: ZIF62_glass_2a.csv
TITLE,G1-1
DATA TYPE,RAMAN SPECTRUM
ORIGIN,JASCO
OWNER,
DATE,25/03/17
TIME,14:03:06
SPECTROMETER/DATA SYSTEM,
LOCALE,1041
XUNITS,1/CM
YUNITS,INTENSITY
FIRSTX,  545.3755
LASTX, 1597.63
NPOINTS,    1024
XYDATA
545.3755,309
549.9459,313
554.5125,326
559.0750,312
563.6337,312
568.1886,310
572.7395,312
577.2866,308
581.8298,302
586.3691,310
590.9045,306
595.4362,303
599.9639,302
604.4877,307
609.0078,306
613.5239,307
618.0363,302
622.5448,299
627.0494,305
631.5503,305
636.0473,305
640.5405,310
645.0298,321
649.5154,313
653.9971,314
658.4751,310
662.9492,308
667.4196,309
671.8861,307
676.3489,302
680.8079,299
685.2631,301
689.7144,290
694.1620,286
698.6060,287
703.0460,283
707.4824,285
711.9150,284
716.3438,287
720.7689,284
725.1902,288
729.6078,282
734.0216,282
738.4317,287
742.8381,281
747.2407,282
751.6396,288
756.0349,285
760.4264,288
764.8141,282
769.1982,289
773.5786,313
777.9553,314
782.3282,287
786.6975,280
791.0631,283
795.4250,288
799.7833,285
804.1378,283
808.4887,283
812.8359,287
817.1794,287
821.5193,279
825.8555,282
830.1881,286
834.5170,286
838.8423,286
843.1639,287
847.4819,284
851.7963,286
856.1070,278
860.4141,276
864.7175,279
869.0174,279
873.3136,283
877.6062,283
881.8952,272
886.1807,281
890.4625,283
894.7407,279
899.0153,283
903.2863,289
907.5537,283
911.8175,284
916.0778,277
920.3345,280
924.5876,281
928.8372,276
933.0831,282
937.3256,280
941.5644,283
945.7997,282
950.0315,286
954.2597,290
958.4843,285
962.7054,289
966.9230,284
971.1371,289
975.3477,304
979.5546,294
983.7581,282
987.9581,280
992.1545,282
996.3475,276
1000.54,284
1004.72,286
1008.91,287
1013.08,290
1017.26,313
1021.43,301
1025.6,287
1029.77,282
1033.93,283
1038.08,276
1042.24,276
1046.39,279
1050.54,277
1054.68,280
1058.82,278
1062.96,284
1067.09,282
1071.22,278
1075.35,278
1079.47,286
1083.59,294
1087.71,289
1091.82,289
1095.93,288
1100.04,291
1104.14,292
1108.24,292
1112.34,284
1116.43,287
1120.52,285
1124.61,282
1128.69,283
1132.77,285
1136.84,289
1140.92,287
1144.98,290
1149.05,296
1153.11,299
1157.17,302
1161.23,324
1165.28,338
1169.33,338
1173.37,311
1177.41,298
1181.45,290
1185.49,291
1189.52,291
1193.55,289
1197.57,292
1201.59,296
1205.61,292
1209.63,293
1213.64,293
1217.65,293
1221.65,297
1225.66,295
1229.65,299
1233.65,305
1237.64,305
1241.63,305
1245.62,300
1249.6,295
1253.58,300
1257.55,309
1261.52,323
1265.49,334
1269.46,375
1273.42,402
1277.38,368
1281.33,332
1285.29,321
1289.24,312
1293.18,311
1297.12,306
1301.06,305
1305,305
1308.93,299
1312.86,299
1316.79,302
1320.71,302
1324.63,301
1328.55,304
1332.46,304
1336.37,299
1340.28,304
1344.18,310
1348.08,313
1351.98,305
1355.88,307
1359.77,310
1363.65,314
1367.54,306
1371.42,299
1375.3,302
1379.17,299
1383.04,299
1386.91,304
1390.78,306
1394.64,302
1398.5,295
1402.36,301
1406.21,305
1410.06,302
1413.9,304
1417.75,303
1421.59,300
1425.42,305
1429.26,303
1433.09,303
1436.92,311
1440.74,309
1444.56,308
1448.38,304
1452.19,314
1456.01,311
1459.81,312
1463.62,314
1467.42,311
1471.22,319
1475.02,315
1478.81,318
1482.6,317
1486.39,325
1490.17,327
1493.95,328
1497.73,316
1501.5,311
1505.27,312
1509.04,311
1512.81,306
1516.57,307
1520.33,312
1524.08,312
1527.84,301
1531.59,309
1535.33,311
1539.08,307
1542.82,307
1546.55,317
1550.29,310
1554.02,306
1557.75,315
1561.47,313
1565.19,314
1568.91,311
1572.63,318
1576.34,312
1580.05,319
1583.76,320
1587.46,315
1591.16,310
1594.86,313
1597.63,314

##### Extended Information
[Comments]
Sample name,G1-1
Comment,
User,Garrek Stemo
Division
Company,JASCO

[Detailed Information]
Creation date,2025/03/17 14:03

Data array type,Non-linear data array
Horizontal axis,Raman Shift [cm-1]
Vertical axis,Int.
Start,545.376 cm-1
End,1597.63 cm-1
Data points,1024

[Measurement Information]
Model Name,NRS-5100
Serial Number,C008561420

Measurement Date,2025/03/17 14:03

Exposure,120 sec
Accumulation,1
Center wavenumber,1100.04 cm-1
Z position,16550.2 um
Binning Upper,97
Binning Lower,155
Valid Channel,1 - 1024
Shift Speed,32.25 usecs
Amplitude,Normal
Readout Rate,100kHz at 16-bit
Pre-Amplifier Gain,1x
Mode,Conventional
CCD,DU420_OE,12

Laser wavelength,532.05 nm
Monochromator,Single
Grating,1800 l/mm
Slit,100 x 1000 um
Aperture,d-4000 um
Rejection filter,532.0 nm
Resolution,3.95 cm-1, 1.03 cm-1/pixel
Objective lens,MPLFLN 100 x
BS/DM,BS 30/70
Laser power,0.1 mW
Attenuator,1%(OD2)
Cosmic ray reduction,On
CCD temperature,-69.0 C
Shift,-1.45 cm-1

File: ZIF62_glass_2b.csv
TITLE,G1-1
DATA TYPE,RAMAN SPECTRUM
ORIGIN,JASCO
OWNER,
DATE,25/03/17
TIME,13:28:06
SPECTROMETER/DATA SYSTEM,
LOCALE,1041
XUNITS,1/CM
YUNITS,INTENSITY
FIRSTX,  545.3755
LASTX, 1597.63
NPOINTS,    1024
XYDATA
545.3755,310
549.9459,310
554.5125,314
559.0750,309
563.6337,308
568.1886,309
572.7395,308
577.2866,306
581.8298,303
586.3691,307
590.9045,309
595.4362,302
599.9639,305
604.4877,305
609.0078,306
613.5239,304
618.0363,307
622.5448,300
627.0494,304
631.5503,300
636.0473,301
640.5405,307
645.0298,318
649.5154,309
653.9971,311
658.4751,305
662.9492,306
667.4196,313
671.8861,308
676.3489,305
680.8079,293
685.2631,293
689.7144,290
694.1620,295
698.6060,286
703.0460,291
707.4824,284
711.9150,284
716.3438,285
720.7689,287
725.1902,286
729.6078,283
734.0216,286
738.4317,281
742.8381,283
747.2407,281
751.6396,285
756.0349,282
760.4264,287
764.8141,288
769.1982,291
773.5786,304.5
777.9553,305
782.3282,290
786.6975,287
791.0631,284
795.4250,277
799.7833,278
804.1378,285
808.4887,283
812.8359,285
817.1794,283
821.5193,283
825.8555,283
830.1881,279
834.5170,287
838.8423,283
843.1639,282
847.4819,289
851.7963,281
856.1070,280
860.4141,281
864.7175,276
869.0174,282
873.3136,281
877.6062,276
881.8952,279
886.1807,277
890.4625,279
894.7407,287
899.0153,280
903.2863,287
907.5537,284
911.8175,286
916.0778,287
920.3345,283
924.5876,279
928.8372,282
933.0831,280
937.3256,285
941.5644,279
945.7997,282
950.0315,286
954.2597,291
958.4843,287
962.7054,284
966.9230,281
971.1371,289
975.3477,303
979.5546,298
983.7581,285
987.9581,280
992.1545,278
996.3475,281
1000.54,285
1004.72,283
1008.91,283
1013.08,292
1017.26,299
1021.43,293
1025.6,286
1029.77,287
1033.93,282
1038.08,282
1042.24,278
1046.39,275
1050.54,283
1054.68,279
1058.82,280
1062.96,279
1067.09,279
1071.22,277
1075.35,281
1079.47,289
1083.59,295
1087.71,291
1091.82,290
1095.93,284
1100.04,287
1104.14,292
1108.24,291
1112.34,290
1116.43,284
1120.52,283
1124.61,286
1128.69,283
1132.77,285
1136.84,286
1140.92,286
1144.98,285
1149.05,294
1153.11,288
1157.17,306
1161.23,321
1165.28,340
1169.33,352
1173.37,316
1177.41,295
1181.45,294
1185.49,292
1189.52,294
1193.55,291
1197.57,292
1201.59,291
1205.61,296
1209.63,293
1213.64,292
1217.65,294
1221.65,299
1225.66,299
1229.65,294
1233.65,308
1237.64,302
1241.63,303
1245.62,303
1249.6,301
1253.58,307
1257.55,311
1261.52,320
1265.49,336
1269.46,376
1273.42,389
1277.38,370
1281.33,332.5
1285.29,319
1289.24,313
1293.18,308
1297.12,307
1301.06,302
1305,304
1308.93,307
1312.86,303
1316.79,306
1320.71,304
1324.63,303
1328.55,306
1332.46,313
1336.37,307
1340.28,306
1344.18,310
1348.08,313
1351.98,307
1355.88,302
1359.77,309
1363.65,309
1367.54,309
1371.42,302
1375.3,304
1379.17,305
1383.04,303
1386.91,304
1390.78,299
1394.64,297
1398.5,302
1402.36,301
1406.21,304
1410.06,309
1413.9,303
1417.75,305
1421.59,304
1425.42,307
1429.26,309
1433.09,306
1436.92,305
1440.74,308
1444.56,315
1448.38,310
1452.19,313
1456.01,314
1459.81,319
1463.62,314
1467.42,313
1471.22,320
1475.02,317
1478.81,317
1482.6,324
1486.39,330
1490.17,329
1493.95,322
1497.73,322
1501.5,311
1505.27,309
1509.04,312
1512.81,315
1516.57,312
1520.33,303
1524.08,310
1527.84,309
1531.59,312
1535.33,312
1539.08,312
1542.82,321
1546.55,316
1550.29,321
1554.02,316
1557.75,315
1561.47,315
1565.19,317
1568.91,312
1572.63,315
1576.34,313
1580.05,313
1583.76,315
1587.46,309
1591.16,319
1594.86,315
1597.63,319

##### Extended Information
[Comments]
Sample name,G1-1
Comment,
User,Garrek Stemo
Division
Company,JASCO

[Detailed Information]
Creation date,2025/03/17 13:28

Data array type,Non-linear data array
Horizontal axis,Raman Shift [cm-1]
Vertical axis,Int.
Start,545.376 cm-1
End,1597.63 cm-1
Data points,1024

[Measurement Information]
Model Name,NRS-5100
Serial Number,C008561420

Measurement Date,2025/03/17 13:28

Exposure,120 sec
Accumulation,1
Center wavenumber,1100.04 cm-1
Z position,16395.5 um
Binning Upper,97
Binning Lower,155
Valid Channel,1 - 1024
Shift Speed,32.25 usecs
Amplitude,Normal
Readout Rate,100kHz at 16-bit
Pre-Amplifier Gain,1x
Mode,Conventional
CCD,DU420_OE,12

Laser wavelength,532.05 nm
Monochromator,Single
Grating,1800 l/mm
Slit,100 x 1000 um
Aperture,d-4000 um
Rejection filter,532.0 nm
Resolution,3.95 cm-1, 1.03 cm-1/pixel
Objective lens,MPLFLN 100 x
BS/DM,BS 30/70
Laser power,0.1 mW
Attenuator,1%(OD2)
Cosmic ray reduction,On
CCD temperature,-69.0 C
Shift,-1.45 cm-1